Folder: umap/xrd_data

File: mp-19306_Fe3O4.csv
# 2theta, Intensity
10,0.00691753
10.18,0.0070786
10.36,0.0072477
10.54,0.00742549
10.72,0.00761272
10.9,0.0078102
11.08,0.00801889
11.26,0.00823983
11.44,0.00847421
11.62,0.00872337
11.8,0.00898887
11.98,0.00927244
12.16,0.0095761
12.34,0.00990217
12.52,0.0102533
12.7,0.0106327
12.88,0.0110439
13.06,0.0114913
13.24,0.0119799
13.42,0.0125158
13.6,0.0131061
13.78,0.0137596
13.96,0.0144868
14.14,0.0153006
14.32,0.0162172
14.5,0.0172564
14.68,0.0184435
14.86,0.0198106
15.04,0.0213992
15.22,0.0232636
15.4,0.0254765
15.58,0.028136
15.76,0.0313778
15.94,0.035394
16.12,0.0404633
16.3,0.047003
16.48,0.0556608
16.66,0.0674861
16.84,0.0842712
17.02,0.109287
17.2,0.149031
17.38,0.217989
17.56,0.354199
17.74,0.687032
17.92,1.93709
18.1,16.4039
18.28,19.9307
18.46,2.17009
18.64,0.733669
18.82,0.37202
19,0.227673
19.18,0.155784
19.36,0.114913
19.54,0.0895326
19.72,0.0727513
19.9,0.0611291
20.08,0.0527922
20.26,0.0466491
20.44,0.0420295
20.62,0.0385032
20.8,0.0357841
20.98,0.0336762
21.16,0.0320416
21.34,0.0307815
21.52,0.0298235
21.7,0.0291141
21.88,0.0286131
22.06,0.0282901
22.24,0.0281222
22.42,0.028092
22.6,0.0281864
22.78,0.028396
22.96,0.028714
23.14,0.0291361
23.32,0.02966
23.5,0.0302853
23.68,0.0310134
23.86,0.0318471
24.04,0.0327913
24.22,0.0338522
24.4,0.0350383
24.58,0.03636
24.76,0.0378303
24.94,0.0394647
25.12,0.0412824
25.3,0.0433066
25.48,0.0455653
25.66,0.0480927
25.84,0.0509309
26.02,0.0541314
26.2,0.0577589
26.38,0.061894
26.56,0.0666394
26.74,0.072127
26.92,0.0785287
27.1,0.0860718
27.28,0.0950622
27.46,0.10592
27.64,0.119236
27.82,0.13586
28,0.157055
28.18,0.184763
28.36,0.2221
28.54,0.274325
28.72,0.3509
28.9,0.470288
29.08,0.672643
29.26,1.05973
29.44,1.95799
29.62,4.97367
29.8,32.7005
29.98,93.5172
30.16,9.47307
30.34,2.82362
30.52,1.38571
30.7,0.847677
30.88,0.591477
31.06,0.452142
31.24,0.370381
31.42,0.320692
31.6,0.290729
31.78,0.274041
31.96,0.26713
32.14,0.268138
32.32,0.276231
32.5,0.291313
32.68,0.313936
32.86,0.345333
33.04,0.387598
33.22,0.444041
33.4,0.51985
33.58,0.623303
33.76,0.768095
33.94,0.978062
34.12,1.29761
34.3,1.8173
34.48,2.7462
34.66,4.66329
34.84,9.72567
35.02,32.8012
35.2,325.785
35.38,119.906
35.56,17.8346
35.74,6.95375
35.92,3.77588
36.1,2.47338
36.28,1.91457
36.46,1.90826
36.64,3.49956
36.82,27.0297
37,10.8782
37.18,1.94932
37.36,0.954381
37.54,0.629634
37.72,0.471834
37.9,0.378291
38.08,0.31611
38.26,0.271731
38.44,0.23856
38.62,0.212998
38.8,0.192909
38.98,0.176947
39.16,0.164232
39.34,0.154173
39.52,0.146379
39.7,0.140599
39.88,0.136704
40.06,0.134666
40.24,0.134567
40.42,0.136616
40.6,0.141187
40.78,0.148895
40.96,0.160719
41.14,0.178236
41.32,0.204061
41.5,0.242731
41.68,0.302628
41.86,0.400617
42.04,0.574854
42.22,0.927683
42.4,1.81965
42.58,5.42358
42.76,50.5812
42.94,37.4118
43.12,4.54767
43.3,1.6424
43.48,0.857344
43.66,0.533868
43.84,0.369398
44.02,0.274321
44.2,0.214365
44.38,0.174113
44.56,0.145792
44.74,0.125146
44.92,0.10969
45.1,0.09791
45.28,0.088858
45.46,0.081953
45.64,0.0768878
45.82,0.0736276
46,0.0725489
46.18,0.0749539
46.36,0.0850859
46.54,0.12127
46.72,0.35878
46.9,2.31102
47.08,0.366577
47.26,0.115458
47.44,0.0747695
47.62,0.060497
47.8,0.0536937
47.98,0.0498887
48.16,0.0475755
48.34,0.0461303
48.52,0.0452579
48.7,0.0448067
48.88,0.0446955
49.06,0.044882
49.24,0.045348
49.42,0.0460921
49.6,0.0471268
49.78,0.0484775
49.96,0.0501841
50.14,0.0523035
50.32,0.054915
50.5,0.0581279
50.68,0.0620948
50.86,0.0670308
51.04,0.0732475
51.22,0.0812075
51.4,0.0916227
51.58,0.105636
51.76,0.12518
51.94,0.153739
52.12,0.198149
52.3,0.27339
52.48,0.417912
52.66,0.757767
52.84,1.94241
53.02,13.9532
53.2,28.8318
53.38,2.98491
53.56,0.979099
53.74,0.521661
53.92,0.351156
54.1,0.274218
54.28,0.238218
54.46,0.224548
54.64,0.22598
54.82,0.240263
55,0.268205
55.18,0.313585
55.36,0.384529
55.54,0.497366
55.72,0.686736
55.9,1.03535
56.08,1.78235
56.26,3.8871
56.44,15.3392
56.62,135.343
56.8,25.6777
56.98,4.92136
57.16,2.07394
57.34,1.15629
57.52,0.747785
57.7,0.531568
57.88,0.404158
58.06,0.323574
58.24,0.270174
58.42,0.233803
58.6,0.208822
58.78,0.191942
58.96,0.1812
59.14,0.175442
59.32,0.17405
59.5,0.176814
59.68,0.183881
59.86,0.195775
59.98,0.20685

File: mp-1245006_Ti.csv
# 2theta, Intensity
10,0.0277407
10.18,0.0286765
10.36,0.0296727
10.54,0.0307361
10.72,0.0318747
10.9,0.0330984
11.08,0.0344188
11.26,0.0358504
11.44,0.0374111
11.62,0.039124
11.8,0.0410185
11.98,0.0431336
12.16,0.0455222
12.34,0.0482576
12.52,0.0514447
12.7,0.055239
12.88,0.0598808
13.06,0.0657589
13.24,0.0735411
13.42,0.0844591
13.6,0.101006
13.78,0.128902
13.96,0.183879
14.14,0.323938
14.32,0.939309
14.5,8.7807
14.68,3.64859
14.86,0.584553
15.04,0.272157
15.22,0.184586
15.4,0.150441
15.58,0.135743
15.76,0.130073
15.94,0.129409
16.12,0.131976
16.3,0.136942
16.48,0.143932
16.66,0.152821
16.84,0.163651
17.02,0.176589
17.2,0.191924
17.38,0.210071
17.56,0.231608
17.74,0.257317
17.92,0.288265
18.1,0.32592
18.28,0.37234
18.46,0.430479
18.64,0.504689
18.82,0.60161
19,0.731782
19.18,0.912796
19.36,1.1759
19.54,1.58127
19.72,2.25842
19.9,3.53582
20.08,6.53183
20.26,19.9368
20.44,68.4972
20.62,401.244
20.8,78.5579
20.98,15.2279
21.16,6.60951
21.34,3.88496
21.52,2.74975
21.7,2.26361
21.88,2.15891
22.06,2.41421
22.24,3.24876
22.42,5.5713
22.6,14.4689
22.78,114.639
22.96,165.332
23.14,17.6749
23.32,5.93448
23.5,3.03381
23.68,1.8749
23.86,1.29215
24.04,0.955776
24.22,0.742808
24.4,0.598748
24.58,0.496357
24.76,0.420753
24.94,0.363228
25.12,0.318401
25.3,0.282797
25.48,0.254088
25.66,0.230671
25.84,0.211414
26.02,0.195508
26.2,0.182367
26.38,0.171574
26.56,0.162838
26.74,0.155979
26.92,0.15092
27.1,0.147693
27.28,0.14647
27.46,0.147621
27.64,0.151836
27.82,0.160366
28,0.175546
28.18,0.202047
28.36,0.250205
28.54,0.346804
28.72,0.581237
28.9,1.44113
29.08,11.0426
29.26,15.2228
29.44,5.4019
29.62,0.96036
29.8,0.45061
29.98,0.289351
30.16,0.216545
30.34,0.177728
30.52,0.155072
30.7,0.141269
30.88,0.132887
31.06,0.128181
31.24,0.126248
31.42,0.126681
31.6,0.129449
31.78,0.134939
31.96,0.144236
32.14,0.160033
32.32,0.189868
32.5,0.261689
32.68,0.566978
32.86,4.35401
33.04,1.72885
33.22,0.413571
33.4,0.291645
33.58,0.275451
33.76,0.292032
33.94,0.333117
34.12,0.420949
34.3,0.918329
34.48,1.41655
34.66,0.805508
34.84,1.0651
35.02,1.73895
35.2,3.75197
35.38,16.9039
35.56,107.429
35.74,14.2499
35.92,6.4073
36.1,4.52946
36.28,1.8791
36.46,1.69077
36.64,1.95582
36.82,2.70683
37,4.51716
37.18,9.97467
37.36,43.6501
37.54,324.095
37.72,46.6811
37.9,10.2014
38.08,4.46565
38.26,2.53409
38.44,1.70572
38.62,1.56423
38.8,0.911391
38.98,0.688333
39.16,0.554211
39.34,0.461445
39.52,0.394589
39.7,0.34556
39.88,0.309707
40.06,0.284412
40.24,0.268573
40.42,0.262657
40.6,0.269569
40.78,0.297719
40.96,0.372844
41.14,0.606831
41.32,2.31798
41.5,8.00927
41.68,3.41818
41.86,19.1393
42.04,3.70831
42.22,0.835881
42.4,0.436032
42.58,0.339254
42.76,0.760246
42.94,0.528422
43.12,0.215588
43.3,0.18086
43.48,0.173442
43.66,0.178736
43.84,0.197878
44.02,0.241932
44.2,0.350985
44.38,0.735583
44.56,4.67317
44.74,9.08255
44.92,1.06231
45.1,0.452146
45.28,0.327111
45.46,0.299207
45.64,0.311711
45.82,0.354586
46,0.434201
46.18,0.573705
46.36,0.833168
46.54,1.3991
46.72,3.21515
46.9,10.1788
47.08,94.771
47.26,24.9806
47.44,4.39696
47.62,2.00967
47.8,1.4942
47.98,1.85716
48.16,5.56118
48.34,44.0467
48.52,7.9458
48.7,1.79964
48.88,1.02294
49.06,1.61412
49.24,6.85562
49.42,1.03449
49.6,0.40132
49.78,0.264461
49.96,0.205703
50.14,0.175109
50.32,0.163341
50.5,0.190354
50.68,0.691912
50.86,0.723679
51.04,0.165321
51.22,0.114911
51.4,0.0998848
51.58,0.0934432
51.76,0.0913037
51.94,0.0931263
52.12,0.101185
52.3,0.124597
52.48,0.21194
52.66,1.12004
52.84,2.14796
53.02,0.283671
53.2,0.140193
53.38,0.109008
53.56,0.0997077
53.74,0.0988341
53.92,0.104228
54.1,0.123569
54.28,0.312251
54.46,0.271401
54.64,0.157358
54.82,0.172044
55,0.212173
55.18,0.295437
55.36,0.546085
55.54,3.04824
55.72,3.25588
55.9,1.149
56.08,3.24766
56.26,5.50664
56.44,33.7001
56.62,17.3948
56.8,16.543
56.98,2.6759
57.16,4.53897
57.34,6.28178
57.52,3.37972
57.7,1.59132
57.88,0.474735
58.06,0.344468
58.24,0.646626
58.42,0.965881
58.6,0.250929
58.78,0.187529
58.96,0.17279
59.14,0.172628
59.32,0.183009
59.5,0.206694
59.68,0.258671
59.86,0.514498
59.98,1.04364